{"graph": {"nodes": [{"id": "standard:SDTM", "type": "Standard", "name": "SDTM", "version": "3.4", "description": "Study Data Tabulation Model Implementation Guide v3.4", "organization": "CDISC"}, {"id": "standard:CDASH", "type": "Standard", "name": "CDASH"}, {"id": "standard:ADaM", "type": "Standard", "name": "ADaM"}, {"id": "standard:TLF", "type": "Standard", "name": "TLF"}, {"id": "class:special_purpose", "type": "Class", "name": "Special Purpose", "description": "Domains that do not conform to one of the three general observation classes"}, {"id": "class:interventions", "type": "Class", "name": "Interventions", "description": "Data that reflect study treatments, such as drug exposure or procedures"}, {"id": "class:events", "type": "Class", "name": "Events", "description": "Data that reflect occurrences, such as adverse events or disposition"}, {"id": "class:findings", "type": "Class", "name": "Findings", "description": "Data that reflect observations, such as laboratory tests or vital signs"}, {"id": "class:trial_design", "type": "Class", "name": "Trial Design", "description": "Domains describing the design of the clinical trial"}, {"id": "codelist:NY", "type": "Codelist", "name": "No Yes Response", "codelist_id": "NY"}, {"id": "codelist:SEX", "type": "Codelist", "name": "Sex", "codelist_id": "SEX"}, {"id": "codelist:RACE", "type": "Codelist", "name": "Race", "codelist_id": "RACE"}, {"id": "codelist:ETHNIC", "type": "Codelist", "name": "Ethnicity", "codelist_id": "ETHNIC"}, {"id": "codelist:AGEU", "type": "Codelist", "name": "Age Unit", "codelist_id": "AGEU"}, {"id": "codelist:COUNTRY", "type": "Codelist", "name": "Country", "codelist_id": "COUNTRY"}, {"id": "codelist:AESEV", "type": "Codelist", "name": "Severity/Intensity Scale for Adverse Events", "codelist_id": "AESEV"}, {"id": "codelist:ACN", "type": "Codelist", "name": "Action Taken with Study Treatment", "codelist_id": "ACN"}, {"id": "codelist:OUT", "type": "Codelist", "name": "Outcome of Event", "codelist_id": "OUT"}, {"id": "codelist:STENRF", "type": "Codelist", "name": "Start/End Relative to Reference Period", "codelist_id": "STENRF"}, {"id": "codelist:UNIT", "type": "Codelist", "name": "Units", "codelist_id": "UNIT"}, {"id": "codelist:FREQ", "type": "Codelist", "name": "Frequency", "codelist_id": "FREQ"}, {"id": "codelist:ROUTE", "type": "Codelist", "name": "Route of Administration", "codelist_id": "ROUTE"}, {"id": "codelist:FRM", "type": "Codelist", "name": "Pharmaceutical Dosage Form", "codelist_id": "FRM"}, {"id": "codelist:NRIND", "type": "Codelist", "name": "Reference Range Indicator", "codelist_id": "NRIND"}, {"id": "codelist:SPEC", "type": "Codelist", "name": "Specimen Type", "codelist_id": "SPEC"}, {"id": "codelist:METHOD", "type": "Codelist", "name": "Method of Test or Examination", "codelist_id": "METHOD"}, {"id": "codelist:POSITION", "type": "Codelist", "name": "Position", "codelist_id": "POSITION"}, {"id": "codelist:STAT", "type": "Codelist", "name": "Completion Status", "codelist_id": "STAT"}, {"id": "codelist:LOC", "type": "Codelist", "name": "Location of Vital Signs Measurement", "codelist_id": "LOC"}, {"id": "codelist:LBTESTCD", "type": "Codelist", "name": "Lab Test Code", "codelist_id": "LBTESTCD"}, {"id": "codelist:LBTEST", "type": "Codelist", "name": "Lab Test Name", "codelist_id": "LBTEST"}, {"id": "codelist:VSTESTCD", "type": "Codelist", "name": "Vital Signs Test Code", "codelist_id": "VSTESTCD"}, {"id": "codelist:VSTEST", "type": "Codelist", "name": "Vital Signs Test Name", "codelist_id": "VSTEST"}, {"id": "domain:DM", "type": "Domain", "name": "Demographics", "domain_code": "DM", "description": "One record per subject. Contains demographic and baseline information.", "structure": "One record per subject"}, {"id": "variable:DM.STUDYID", "type": "Variable", "name": "STUDYID", "label": "Study Identifier", "data_type": "Char", "core": "Req", "role": "Identifier", "domain": "DM", "description": "Unique identifier for a study"}, {"id": "variable:DM.DOMAIN", "type": "Variable", "name": "DOMAIN", "label": "Domain Abbreviation", "data_type": "Char", "core": "Req", "role": "Identifier", "domain": "DM", "description": "Two-character abbreviation for the domain"}, {"id": "variable:DM.USUBJID", "type": "Variable", "name": "USUBJID", "label": "Unique Subject Identifier", "data_type": "Char", "core": "Req", "role": "Identifier", "domain": "DM", "description": "Identifier used to uniquely identify a subject across all studies for all applications"}, {"id": "variable:DM.SUBJID", "type": "Variable", "name": "SUBJID", "label": "Subject Identifier for the Study", "data_type": "Char", "core": "Req", "role": "Topic", "domain": "DM", "description": "Subject identifier within a study"}, {"id": "variable:DM.RFSTDTC", "type": "Variable", "name": "RFSTDTC", "label": "Subject Reference Start Date/Time", "data_type": "Char", "core": "Exp", "role": "Record Qualifier", "domain": "DM", "description": "Reference start date/time for the subject in ISO 8601"}, {"id": "variable:DM.RFENDTC", "type": "Variable", "name": "RFENDTC", "label": "Subject Reference End Date/Time", "data_type": "Char", "core": "Exp", "role": "Record Qualifier", "domain": "DM", "description": "Reference end date/time for the subject in ISO 8601"}, {"id": "variable:DM.RFXSTDTC", "type": "Variable", "name": "RFXSTDTC", "label": "Date/Time of First Study Treatment", "data_type": "Char", "core": "Exp", "role": "Record Qualifier", "domain": "DM", "description": "First date/time of study treatment exposure"}, {"id": "variable:DM.RFXENDTC", "type": "Variable", "name": "RFXENDTC", "label": "Date/Time of Last Study Treatment", "data_type": "Char", "core": "Exp", "role": "Record Qualifier", "domain": "DM", "description": "Last date/time of study treatment exposure"}, {"id": "variable:DM.RFICDTC", "type": "Variable", "name": "RFICDTC", "label": "Date/Time of Informed Consent", "data_type": "Char", "core": "Exp", "role": "Record Qualifier", "domain": "DM", "description": "Date/time of informed consent in ISO 8601"}, {"id": "variable:DM.RFPENDTC", "type": "Variable", "name": "RFPENDTC", "label": "Date/Time of End of Participation", "data_type": "Char", "core": "Exp", "role": "Record Qualifier", "domain": "DM", "description": "Date/time of the end of a subject's participation in a study"}, {"id": "variable:DM.DTHDTC", "type": "Variable", "name": "DTHDTC", "label": "Date/Time of Death", "data_type": "Char", "core": "Exp", "role": "Record Qualifier", "domain": "DM", "description": "Date/time of death of the subject in ISO 8601"}, {"id": "variable:DM.DTHFL", "type": "Variable", "name": "DTHFL", "label": "Subject Death Flag", "data_type": "Char", "core": "Exp", "role": "Record Qualifier", "domain": "DM", "description": "Indicates the subject died (Y or N)"}, {"id": "variable:DM.SITEID", "type": "Variable", "name": "SITEID", "label": "Study Site Identifier", "data_type": "Char", "core": "Req", "role": "Record Qualifier", "domain": "DM", "description": "Unique identifier for a site"}, {"id": "variable:DM.BRTHDTC", "type": "Variable", "name": "BRTHDTC", "label": "Date/Time of Birth", "data_type": "Char", "core": "Perm", "role": "Record Qualifier", "domain": "DM", "description": "Date/time of birth"}, {"id": "variable:DM.AGE", "type": "Variable", "name": "AGE", "label": "Age", "data_type": "Num", "core": "Exp", "role": "Record Qualifier", "domain": "DM", "description": "Age at reference start date"}, {"id": "variable:DM.AGEU", "type": "Variable", "name": "AGEU", "label": "Age Units", "data_type": "Char", "core": "Exp", "role": "Variable Qualifier", "domain": "DM", "description": "Units associated with AGE"}, {"id": "variable:DM.SEX", "type": "Variable", "name": "SEX", "label": "Sex", "data_type": "Char", "core": "Req", "role": "Record Qualifier", "domain": "DM", "description": "Sex of the subject"}, {"id": "variable:DM.RACE", "type": "Variable", "name": "RACE", "label": "Race", "data_type": "Char", "core": "Exp", "role": "Record Qualifier", "domain": "DM", "description": "Race of the subject (from a multi-race code list)"}, {"id": "variable:DM.ETHNIC", "type": "Variable", "name": "ETHNIC", "label": "Ethnicity", "data_type": "Char", "core": "Exp", "role": "Record Qualifier", "domain": "DM", "description": "The ethnicity of the subject"}, {"id": "variable:DM.ARMCD", "type": "Variable", "name": "ARMCD", "label": "Planned Arm Code", "data_type": "Char", "core": "Req", "role": "Record Qualifier", "domain": "DM", "description": "Short description of the planned arm for a subject"}, {"id": "variable:DM.ARM", "type": "Variable", "name": "ARM", "label": "Description of Planned Arm", "data_type": "Char", "core": "Req", "role": "Synonym Qualifier", "domain": "DM", "description": "Name of the arm to which the subject was assigned"}, {"id": "variable:DM.ACTARMCD", "type": "Variable", "name": "ACTARMCD", "label": "Actual Arm Code", "data_type": "Char", "core": "Req", "role": "Record Qualifier", "domain": "DM", "description": "Code for the actual arm for a subject"}, {"id": "variable:DM.ACTARM", "type": "Variable", "name": "ACTARM", "label": "Description of Actual Arm", "data_type": "Char", "core": "Req", "role": "Synonym Qualifier", "domain": "DM", "description": "Description of the actual arm for a subject"}, {"id": "variable:DM.COUNTRY", "type": "Variable", "name": "COUNTRY", "label": "Country", "data_type": "Char", "core": "Req", "role": "Record Qualifier", "domain": "DM", "description": "Country of the investigational site (ISO 3166-1 Alpha-3)"}, {"id": "variable:DM.DMDTC", "type": "Variable", "name": "DMDTC", "label": "Date/Time of Collection", "data_type": "Char", "core": "Perm", "role": "Timing", "domain": "DM", "description": "Date/time of demographic data collection"}, {"id": "variable:DM.DMDY", "type": "Variable", "name": "DMDY", "label": "Study Day of Collection", "data_type": "Num", "core": "Perm", "role": "Timing", "domain": "DM", "description": "Study day of demographic data collection"}, {"id": "domain:AE", "type": "Domain", "name": "Adverse Events", "domain_code": "AE", "description": "One record per adverse event per subject. Contains adverse event data.", "structure": "One record per adverse event per subject"}, {"id": "variable:AE.STUDYID", "type": "Variable", "name": "STUDYID", "label": "Study Identifier", "data_type": "Char", "core": "Req", "role": "Identifier", "domain": "AE", "description": "Unique identifier for a study"}, {"id": "variable:AE.DOMAIN", "type": "Variable", "name": "DOMAIN", "label": "Domain Abbreviation", "data_type": "Char", "core": "Req", "role": "Identifier", "domain": "AE", "description": "Two-character abbreviation for the domain"}, {"id": "variable:AE.USUBJID", "type": "Variable", "name": "USUBJID", "label": "Unique Subject Identifier", "data_type": "Char", "core": "Req", "role": "Identifier", "domain": "AE", "description": "Identifier used to uniquely identify a subject across all studies"}, {"id": "variable:AE.AESEQ", "type": "Variable", "name": "AESEQ", "label": "Sequence Number", "data_type": "Num", "core": "Req", "role": "Identifier", "domain": "AE", "description": "Sequence number given to ensure uniqueness of subject records"}, {"id": "variable:AE.AETERM", "type": "Variable", "name": "AETERM", "label": "Reported Term for the Adverse Event", "data_type": "Char", "core": "Req", "role": "Topic", "domain": "AE", "description": "Verbatim name of the adverse event as reported by the investigator"}, {"id": "variable:AE.AEMODIFY", "type": "Variable", "name": "AEMODIFY", "label": "Modified Reported Term", "data_type": "Char", "core": "Perm", "role": "Synonym Qualifier", "domain": "AE", "description": "Modified reported term if different from AETERM"}, {"id": "variable:AE.AEDECOD", "type": "Variable", "name": "AEDECOD", "label": "Dictionary-Derived Term", "data_type": "Char", "core": "Req", "role": "Synonym Qualifier", "domain": "AE", "description": "Dictionary-derived term (MedDRA Preferred Term)"}, {"id": "variable:AE.AEBODSYS", "type": "Variable", "name": "AEBODSYS", "label": "Body System or Organ Class", "data_type": "Char", "core": "Req", "role": "Record Qualifier", "domain": "AE", "description": "Dictionary-derived (MedDRA System Organ Class)"}, {"id": "variable:AE.AESEV", "type": "Variable", "name": "AESEV", "label": "Severity/Intensity", "data_type": "Char", "core": "Exp", "role": "Record Qualifier", "domain": "AE", "description": "The severity or intensity of the event"}, {"id": "variable:AE.AESER", "type": "Variable", "name": "AESER", "label": "Serious Event", "data_type": "Char", "core": "Req", "role": "Record Qualifier", "domain": "AE", "description": "Is the event classified as serious?"}, {"id": "variable:AE.AEACN", "type": "Variable", "name": "AEACN", "label": "Action Taken with Study Treatment", "data_type": "Char", "core": "Exp", "role": "Record Qualifier", "domain": "AE", "description": "Action taken with study treatment as a result of the event"}, {"id": "variable:AE.AEREL", "type": "Variable", "name": "AEREL", "label": "Causality", "data_type": "Char", "core": "Exp", "role": "Record Qualifier", "domain": "AE", "description": "Investigator's opinion of the relationship of the event to treatment"}, {"id": "variable:AE.AEOUT", "type": "Variable", "name": "AEOUT", "label": "Outcome of Adverse Event", "data_type": "Char", "core": "Exp", "role": "Record Qualifier", "domain": "AE", "description": "Description of the outcome of the event"}, {"id": "variable:AE.AESCAN", "type": "Variable", "name": "AESCAN", "label": "Involves Cancer", "data_type": "Char", "core": "Perm", "role": "Record Qualifier", "domain": "AE", "description": "Is the event a cancer?"}, {"id": "variable:AE.AESCONG", "type": "Variable", "name": "AESCONG", "label": "Congenital Anomaly or Birth Defect", "data_type": "Char", "core": "Perm", "role": "Record Qualifier", "domain": "AE", "description": "Is the event a congenital anomaly?"}, {"id": "variable:AE.AESDISAB", "type": "Variable", "name": "AESDISAB", "label": "Persist or Signif Disability/Incapacity", "data_type": "Char", "core": "Perm", "role": "Record Qualifier", "domain": "AE", "description": "Event results in persistent or significant disability?"}, {"id": "variable:AE.AESDTH", "type": "Variable", "name": "AESDTH", "label": "Results in Death", "data_type": "Char", "core": "Perm", "role": "Record Qualifier", "domain": "AE", "description": "Is the event associated with the outcome of death?"}, {"id": "variable:AE.AESHOSP", "type": "Variable", "name": "AESHOSP", "label": "Requires or Prolongs Hospitalization", "data_type": "Char", "core": "Perm", "role": "Record Qualifier", "domain": "AE", "description": "Event requires or prolongs hospitalization?"}, {"id": "variable:AE.AESLIFE", "type": "Variable", "name": "AESLIFE", "label": "Is Life Threatening", "data_type": "Char", "core": "Perm", "role": "Record Qualifier", "domain": "AE", "description": "Is the event life threatening?"}, {"id": "variable:AE.AESOD", "type": "Variable", "name": "AESOD", "label": "Occurred with Overdose", "data_type": "Char", "core": "Perm", "role": "Record Qualifier", "domain": "AE", "description": "Event occurred with an overdose?"}, {"id": "variable:AE.AESTDTC", "type": "Variable", "name": "AESTDTC", "label": "Start Date/Time of Adverse Event", "data_type": "Char", "core": "Exp", "role": "Timing", "domain": "AE", "description": "Start date/time of the adverse event in ISO 8601"}, {"id": "variable:AE.AEENDTC", "type": "Variable", "name": "AEENDTC", "label": "End Date/Time of Adverse Event", "data_type": "Char", "core": "Exp", "role": "Timing", "domain": "AE", "description": "End date/time of the adverse event in ISO 8601"}, {"id": "variable:AE.AESTDY", "type": "Variable", "name": "AESTDY", "label": "Study Day of Start of Adverse Event", "data_type": "Num", "core": "Perm", "role": "Timing", "domain": "AE", "description": "Study day of start of adverse event relative to reference date"}, {"id": "variable:AE.AEENDY", "type": "Variable", "name": "AEENDY", "label": "Study Day of End of Adverse Event", "data_type": "Num", "core": "Perm", "role": "Timing", "domain": "AE", "description": "Study day of end of adverse event relative to reference date"}, {"id": "variable:AE.AEENRF", "type": "Variable", "name": "AEENRF", "label": "End Relative to Reference Period", "data_type": "Char", "core": "Perm", "role": "Timing", "domain": "AE", "description": "Describes the end of the event relative to the reference period"}, {"id": "domain:CM", "type": "Domain", "name": "Concomitant Medications", "domain_code": "CM", "description": "One record per medication per subject. Contains concomitant and prior medication data.", "structure": "One record per recorded medication occurrence per subject"}, {"id": "variable:CM.STUDYID", "type": "Variable", "name": "STUDYID", "label": "Study Identifier", "data_type": "Char", "core": "Req", "role": "Identifier", "domain": "CM", "description": "Unique identifier for a study"}, {"id": "variable:CM.DOMAIN", "type": "Variable", "name": "DOMAIN", "label": "Domain Abbreviation", "data_type": "Char", "core": "Req", "role": "Identifier", "domain": "CM", "description": "Two-character abbreviation for the domain"}, {"id": "variable:CM.USUBJID", "type": "Variable", "name": "USUBJID", "label": "Unique Subject Identifier", "data_type": "Char", "core": "Req", "role": "Identifier", "domain": "CM", "description": "Identifier used to uniquely identify a subject across all studies"}, {"id": "variable:CM.CMSEQ", "type": "Variable", "name": "CMSEQ", "label": "Sequence Number", "data_type": "Num", "core": "Req", "role": "Identifier", "domain": "CM", "description": "Sequence number to ensure uniqueness of records"}, {"id": "variable:CM.CMTRT", "type": "Variable", "name": "CMTRT", "label": "Reported Name of Drug, Med, or Therapy", "data_type": "Char", "core": "Req", "role": "Topic", "domain": "CM", "description": "Verbatim medication name as reported"}, {"id": "variable:CM.CMMODIFY", "type": "Variable", "name": "CMMODIFY", "label": "Modified Reported Name", "data_type": "Char", "core": "Perm", "role": "Synonym Qualifier", "domain": "CM", "description": "Modified reported name, if different from CMTRT"}, {"id": "variable:CM.CMDECOD", "type": "Variable", "name": "CMDECOD", "label": "Standardized Medication Name", "data_type": "Char", "core": "Exp", "role": "Synonym Qualifier", "domain": "CM", "description": "Standardized or dictionary-derived name (WHODrug preferred name)"}, {"id": "variable:CM.CMCAT", "type": "Variable", "name": "CMCAT", "label": "Category for Medication", "data_type": "Char", "core": "Perm", "role": "Grouping Qualifier", "domain": "CM", "description": "Used to define a category of medication"}, {"id": "variable:CM.CMSCAT", "type": "Variable", "name": "CMSCAT", "label": "Subcategory for Medication", "data_type": "Char", "core": "Perm", "role": "Grouping Qualifier", "domain": "CM", "description": "Used to define a subcategory of medication"}, {"id": "variable:CM.CMPRESP", "type": "Variable", "name": "CMPRESP", "label": "CM Pre-Specified", "data_type": "Char", "core": "Perm", "role": "Variable Qualifier", "domain": "CM", "description": "Was medication pre-specified on CRF?"}, {"id": "variable:CM.CMOCCUR", "type": "Variable", "name": "CMOCCUR", "label": "CM Occurrence", "data_type": "Char", "core": "Perm", "role": "Record Qualifier", "domain": "CM", "description": "Did the medication occur? Used with CMPRESP"}, {"id": "variable:CM.CMDOSE", "type": "Variable", "name": "CMDOSE", "label": "Dose per Administration", "data_type": "Num", "core": "Exp", "role": "Record Qualifier", "domain": "CM", "description": "Amount of medication administered per dose"}, {"id": "variable:CM.CMDOSU", "type": "Variable", "name": "CMDOSU", "label": "Dose Units", "data_type": "Char", "core": "Exp", "role": "Variable Qualifier", "domain": "CM", "description": "Units for CMDOSE"}, {"id": "variable:CM.CMDOSFRQ", "type": "Variable", "name": "CMDOSFRQ", "label": "Dosing Frequency per Interval", "data_type": "Char", "core": "Exp", "role": "Variable Qualifier", "domain": "CM", "description": "Usually expressed as the number of doses per time period"}, {"id": "variable:CM.CMROUTE", "type": "Variable", "name": "CMROUTE", "label": "Route of Administration", "data_type": "Char", "core": "Exp", "role": "Variable Qualifier", "domain": "CM", "description": "Route of administration"}, {"id": "variable:CM.CMSTDTC", "type": "Variable", "name": "CMSTDTC", "label": "Start Date/Time of Medication", "data_type": "Char", "core": "Exp", "role": "Timing", "domain": "CM", "description": "Start date/time in ISO 8601"}, {"id": "variable:CM.CMENDTC", "type": "Variable", "name": "CMENDTC", "label": "End Date/Time of Medication", "data_type": "Char", "core": "Exp", "role": "Timing", "domain": "CM", "description": "End date/time in ISO 8601"}, {"id": "variable:CM.CMSTDY", "type": "Variable", "name": "CMSTDY", "label": "Study Day of Start of Medication", "data_type": "Num", "core": "Perm", "role": "Timing", "domain": "CM", "description": "Study day of start of medication"}, {"id": "variable:CM.CMENDY", "type": "Variable", "name": "CMENDY", "label": "Study Day of End of Medication", "data_type": "Num", "core": "Perm", "role": "Timing", "domain": "CM", "description": "Study day of end of medication"}, {"id": "variable:CM.CMINDC", "type": "Variable", "name": "CMINDC", "label": "Indication", "data_type": "Char", "core": "Exp", "role": "Record Qualifier", "domain": "CM", "description": "Indication for the medication, can be linked to AE"}, {"id": "domain:EX", "type": "Domain", "name": "Exposure", "domain_code": "EX", "description": "One record per constant-dosing interval per subject. Contains study drug exposure data.", "structure": "One record per constant-dosing interval per subject"}, {"id": "variable:EX.STUDYID", "type": "Variable", "name": "STUDYID", "label": "Study Identifier", "data_type": "Char", "core": "Req", "role": "Identifier", "domain": "EX", "description": "Unique identifier for a study"}, {"id": "variable:EX.DOMAIN", "type": "Variable", "name": "DOMAIN", "label": "Domain Abbreviation", "data_type": "Char", "core": "Req", "role": "Identifier", "domain": "EX", "description": "Two-character abbreviation for the domain"}, {"id": "variable:EX.USUBJID", "type": "Variable", "name": "USUBJID", "label": "Unique Subject Identifier", "data_type": "Char", "core": "Req", "role": "Identifier", "domain": "EX", "description": "Identifier used to uniquely identify a subject across all studies"}, {"id": "variable:EX.EXSEQ", "type": "Variable", "name": "EXSEQ", "label": "Sequence Number", "data_type": "Num", "core": "Req", "role": "Identifier", "domain": "EX", "description": "Sequence number to ensure uniqueness of records"}, {"id": "variable:EX.EXTRT", "type": "Variable", "name": "EXTRT", "label": "Name of Treatment", "data_type": "Char", "core": "Req", "role": "Topic", "domain": "EX", "description": "Name of the study drug or treatment administered"}, {"id": "variable:EX.EXCAT", "type": "Variable", "name": "EXCAT", "label": "Category of Treatment", "data_type": "Char", "core": "Perm", "role": "Grouping Qualifier", "domain": "EX", "description": "Category for the treatment"}, {"id": "variable:EX.EXDOSE", "type": "Variable", "name": "EXDOSE", "label": "Dose", "data_type": "Num", "core": "Req", "role": "Record Qualifier", "domain": "EX", "description": "Amount of study treatment administered"}, {"id": "variable:EX.EXDOSU", "type": "Variable", "name": "EXDOSU", "label": "Dose Units", "data_type": "Char", "core": "Req", "role": "Variable Qualifier", "domain": "EX", "description": "Units for EXDOSE"}, {"id": "variable:EX.EXDOSFRM", "type": "Variable", "name": "EXDOSFRM", "label": "Dose Form", "data_type": "Char", "core": "Exp", "role": "Variable Qualifier", "domain": "EX", "description": "Pharmaceutical dose form of study treatment"}, {"id": "variable:EX.EXDOSFRQ", "type": "Variable", "name": "EXDOSFRQ", "label": "Dosing Frequency per Interval", "data_type": "Char", "core": "Exp", "role": "Variable Qualifier", "domain": "EX", "description": "Frequency of dosing"}, {"id": "variable:EX.EXROUTE", "type": "Variable", "name": "EXROUTE", "label": "Route of Administration", "data_type": "Char", "core": "Exp", "role": "Variable Qualifier", "domain": "EX", "description": "Route of administration"}, {"id": "variable:EX.EXLOT", "type": "Variable", "name": "EXLOT", "label": "Lot Number", "data_type": "Char", "core": "Perm", "role": "Record Qualifier", "domain": "EX", "description": "Lot number of study treatment"}, {"id": "variable:EX.EXSTDTC", "type": "Variable", "name": "EXSTDTC", "label": "Start Date/Time of Treatment", "data_type": "Char", "core": "Exp", "role": "Timing", "domain": "EX", "description": "Start date/time of treatment in ISO 8601"}, {"id": "variable:EX.EXENDTC", "type": "Variable", "name": "EXENDTC", "label": "End Date/Time of Treatment", "data_type": "Char", "core": "Exp", "role": "Timing", "domain": "EX", "description": "End date/time of treatment in ISO 8601"}, {"id": "variable:EX.EXSTDY", "type": "Variable", "name": "EXSTDY", "label": "Study Day of Start of Treatment", "data_type": "Num", "core": "Perm", "role": "Timing", "domain": "EX", "description": "Study day of start of treatment"}, {"id": "variable:EX.EXENDY", "type": "Variable", "name": "EXENDY", "label": "Study Day of End of Treatment", "data_type": "Num", "core": "Perm", "role": "Timing", "domain": "EX", "description": "Study day of end of treatment"}, {"id": "domain:LB", "type": "Domain", "name": "Laboratory Test Results", "domain_code": "LB", "description": "One record per lab test per time point per subject. Contains laboratory test result data.", "structure": "One record per lab test per time point per subject"}, {"id": "variable:LB.STUDYID", "type": "Variable", "name": "STUDYID", "label": "Study Identifier", "data_type": "Char", "core": "Req", "role": "Identifier", "domain": "LB", "description": "Unique identifier for a study"}, {"id": "variable:LB.DOMAIN", "type": "Variable", "name": "DOMAIN", "label": "Domain Abbreviation", "data_type": "Char", "core": "Req", "role": "Identifier", "domain": "LB", "description": "Two-character abbreviation for the domain"}, {"id": "variable:LB.USUBJID", "type": "Variable", "name": "USUBJID", "label": "Unique Subject Identifier", "data_type": "Char", "core": "Req", "role": "Identifier", "domain": "LB", "description": "Identifier used to uniquely identify a subject across all studies"}, {"id": "variable:LB.LBSEQ", "type": "Variable", "name": "LBSEQ", "label": "Sequence Number", "data_type": "Num", "core": "Req", "role": "Identifier", "domain": "LB", "description": "Sequence number to ensure uniqueness"}, {"id": "variable:LB.LBTESTCD", "type": "Variable", "name": "LBTESTCD", "label": "Lab Test or Examination Short Name", "data_type": "Char", "core": "Req", "role": "Topic", "domain": "LB", "description": "Short name of the lab test (e.g., ALT, AST, CREAT)"}, {"id": "variable:LB.LBTEST", "type": "Variable", "name": "LBTEST", "label": "Lab Test or Examination Name", "data_type": "Char", "core": "Req", "role": "Synonym Qualifier", "domain": "LB", "description": "Verbatim name of the test (e.g., Alanine Aminotransferase)"}, {"id": "variable:LB.LBCAT", "type": "Variable", "name": "LBCAT", "label": "Category for Lab Test", "data_type": "Char", "core": "Exp", "role": "Grouping Qualifier", "domain": "LB", "description": "Used to define a category of lab tests (e.g., HEMATOLOGY, CHEMISTRY)"}, {"id": "variable:LB.LBSCAT", "type": "Variable", "name": "LBSCAT", "label": "Subcategory for Lab Test", "data_type": "Char", "core": "Perm", "role": "Grouping Qualifier", "domain": "LB", "description": "Subcategory for the lab test"}, {"id": "variable:LB.LBORRES", "type": "Variable", "name": "LBORRES", "label": "Result or Finding in Original Units", "data_type": "Char", "core": "Exp", "role": "Result Qualifier", "domain": "LB", "description": "Result of the lab test as originally received"}, {"id": "variable:LB.LBORRESU", "type": "Variable", "name": "LBORRESU", "label": "Original Units", "data_type": "Char", "core": "Exp", "role": "Variable Qualifier", "domain": "LB", "description": "Original units for LBORRES"}, {"id": "variable:LB.LBORNRLO", "type": "Variable", "name": "LBORNRLO", "label": "Reference Range Lower Limit-Orig Unit", "data_type": "Char", "core": "Exp", "role": "Variable Qualifier", "domain": "LB", "description": "Lower limit of the reference range in original units"}, {"id": "variable:LB.LBORNRHI", "type": "Variable", "name": "LBORNRHI", "label": "Reference Range Upper Limit-Orig Unit", "data_type": "Char", "core": "Exp", "role": "Variable Qualifier", "domain": "LB", "description": "Upper limit of the reference range in original units"}, {"id": "variable:LB.LBSTRESC", "type": "Variable", "name": "LBSTRESC", "label": "Character Result/Finding in Std Format", "data_type": "Char", "core": "Exp", "role": "Result Qualifier", "domain": "LB", "description": "Contains the result value for all findings in character format"}, {"id": "variable:LB.LBSTRESN", "type": "Variable", "name": "LBSTRESN", "label": "Numeric Result/Finding in Standard Units", "data_type": "Num", "core": "Exp", "role": "Result Qualifier", "domain": "LB", "description": "Numeric result value in standard units"}, {"id": "variable:LB.LBSTRESU", "type": "Variable", "name": "LBSTRESU", "label": "Standard Units", "data_type": "Char", "core": "Exp", "role": "Variable Qualifier", "domain": "LB", "description": "Standardized units for LBSTRESN"}, {"id": "variable:LB.LBSTNRLO", "type": "Variable", "name": "LBSTNRLO", "label": "Reference Range Lower Limit-Std Units", "data_type": "Num", "core": "Exp", "role": "Variable Qualifier", "domain": "LB", "description": "Lower limit of the reference range in standard units"}, {"id": "variable:LB.LBSTNRHI", "type": "Variable", "name": "LBSTNRHI", "label": "Reference Range Upper Limit-Std Units", "data_type": "Num", "core": "Exp", "role": "Variable Qualifier", "domain": "LB", "description": "Upper limit of the reference range in standard units"}, {"id": "variable:LB.LBNRIND", "type": "Variable", "name": "LBNRIND", "label": "Reference Range Indicator", "data_type": "Char", "core": "Exp", "role": "Variable Qualifier", "domain": "LB", "description": "Indicates where the value falls relative to the reference range (NORMAL, LOW, HIGH)"}, {"id": "variable:LB.LBSPEC", "type": "Variable", "name": "LBSPEC", "label": "Specimen Type", "data_type": "Char", "core": "Exp", "role": "Record Qualifier", "domain": "LB", "description": "Type of specimen (e.g., BLOOD, SERUM, URINE, PLASMA)"}, {"id": "variable:LB.LBMETHOD", "type": "Variable", "name": "LBMETHOD", "label": "Method of Test or Examination", "data_type": "Char", "core": "Perm", "role": "Record Qualifier", "domain": "LB", "description": "Method of the laboratory test"}, {"id": "variable:LB.LBBLFL", "type": "Variable", "name": "LBBLFL", "label": "Baseline Flag", "data_type": "Char", "core": "Exp", "role": "Record Qualifier", "domain": "LB", "description": "Indicator for whether the result is a baseline value"}, {"id": "variable:LB.LBFAST", "type": "Variable", "name": "LBFAST", "label": "Fasting Status", "data_type": "Char", "core": "Perm", "role": "Record Qualifier", "domain": "LB", "description": "Was the subject fasting for this specimen collection?"}, {"id": "variable:LB.VISITNUM", "type": "Variable", "name": "VISITNUM", "label": "Visit Number", "data_type": "Num", "core": "Exp", "role": "Timing", "domain": "LB", "description": "Numeric version of VISIT"}, {"id": "variable:LB.VISIT", "type": "Variable", "name": "VISIT", "label": "Visit Name", "data_type": "Char", "core": "Exp", "role": "Timing", "domain": "LB", "description": "Protocol-defined description of clinical encounter"}, {"id": "variable:LB.LBDTC", "type": "Variable", "name": "LBDTC", "label": "Date/Time of Specimen Collection", "data_type": "Char", "core": "Exp", "role": "Timing", "domain": "LB", "description": "Date/time of specimen collection in ISO 8601"}, {"id": "variable:LB.LBDY", "type": "Variable", "name": "LBDY", "label": "Study Day of Specimen Collection", "data_type": "Num", "core": "Perm", "role": "Timing", "domain": "LB", "description": "Study day of specimen collection"}, {"id": "domain:VS", "type": "Domain", "name": "Vital Signs", "domain_code": "VS", "description": "One record per vital sign measurement per time point per subject.", "structure": "One record per vital sign per time point per subject"}, {"id": "variable:VS.STUDYID", "type": "Variable", "name": "STUDYID", "label": "Study Identifier", "data_type": "Char", "core": "Req", "role": "Identifier", "domain": "VS", "description": "Unique identifier for a study"}, {"id": "variable:VS.DOMAIN", "type": "Variable", "name": "DOMAIN", "label": "Domain Abbreviation", "data_type": "Char", "core": "Req", "role": "Identifier", "domain": "VS", "description": "Two-character abbreviation for the domain"}, {"id": "variable:VS.USUBJID", "type": "Variable", "name": "USUBJID", "label": "Unique Subject Identifier", "data_type": "Char", "core": "Req", "role": "Identifier", "domain": "VS", "description": "Identifier used to uniquely identify a subject across all studies"}, {"id": "variable:VS.VSSEQ", "type": "Variable", "name": "VSSEQ", "label": "Sequence Number", "data_type": "Num", "core": "Req", "role": "Identifier", "domain": "VS", "description": "Sequence number to ensure uniqueness"}, {"id": "variable:VS.VSTESTCD", "type": "Variable", "name": "VSTESTCD", "label": "Vital Signs Test Short Name", "data_type": "Char", "core": "Req", "role": "Topic", "domain": "VS", "description": "Short name (e.g., SYSBP, DIABP, PULSE, TEMP, WEIGHT, HEIGHT)"}, {"id": "variable:VS.VSTEST", "type": "Variable", "name": "VSTEST", "label": "Vital Signs Test Name", "data_type": "Char", "core": "Req", "role": "Synonym Qualifier", "domain": "VS", "description": "Verbatim name of the vital signs test"}, {"id": "variable:VS.VSCAT", "type": "Variable", "name": "VSCAT", "label": "Category of Vital Signs", "data_type": "Char", "core": "Perm", "role": "Grouping Qualifier", "domain": "VS", "description": "Category of vital signs test"}, {"id": "variable:VS.VSPOS", "type": "Variable", "name": "VSPOS", "label": "Vital Signs Position of Subject", "data_type": "Char", "core": "Exp", "role": "Record Qualifier", "domain": "VS", "description": "Position of the subject during observations (e.g., STANDING, SITTING, SUPINE)"}, {"id": "variable:VS.VSORRES", "type": "Variable", "name": "VSORRES", "label": "Result or Finding in Original Units", "data_type": "Char", "core": "Exp", "role": "Result Qualifier", "domain": "VS", "description": "Result of the vital signs measurement as originally collected"}, {"id": "variable:VS.VSORRESU", "type": "Variable", "name": "VSORRESU", "label": "Original Units", "data_type": "Char", "core": "Exp", "role": "Variable Qualifier", "domain": "VS", "description": "Units for VSORRES"}, {"id": "variable:VS.VSSTRESC", "type": "Variable", "name": "VSSTRESC", "label": "Character Result/Finding in Std Format", "data_type": "Char", "core": "Exp", "role": "Result Qualifier", "domain": "VS", "description": "Character result in standard format"}, {"id": "variable:VS.VSSTRESN", "type": "Variable", "name": "VSSTRESN", "label": "Numeric Result/Finding in Standard Units", "data_type": "Num", "core": "Exp", "role": "Result Qualifier", "domain": "VS", "description": "Numeric result/finding in standard units"}, {"id": "variable:VS.VSSTRESU", "type": "Variable", "name": "VSSTRESU", "label": "Standard Units", "data_type": "Char", "core": "Exp", "role": "Variable Qualifier", "domain": "VS", "description": "Standardized units"}, {"id": "variable:VS.VSSTAT", "type": "Variable", "name": "VSSTAT", "label": "Completion Status", "data_type": "Char", "core": "Perm", "role": "Record Qualifier", "domain": "VS", "description": "Used to indicate when a test was not done (NOT DONE)"}, {"id": "variable:VS.VSLOC", "type": "Variable", "name": "VSLOC", "label": "Location of Vital Signs Measurement", "data_type": "Char", "core": "Perm", "role": "Record Qualifier", "domain": "VS", "description": "Location on body used for measurement"}, {"id": "variable:VS.VSBLFL", "type": "Variable", "name": "VSBLFL", "label": "Baseline Flag", "data_type": "Char", "core": "Exp", "role": "Record Qualifier", "domain": "VS", "description": "About whether this is a baseline value"}, {"id": "variable:VS.VISITNUM", "type": "Variable", "name": "VISITNUM", "label": "Visit Number", "data_type": "Num", "core": "Exp", "role": "Timing", "domain": "VS", "description": "Numeric visit"}, {"id": "variable:VS.VISIT", "type": "Variable", "name": "VISIT", "label": "Visit Name", "data_type": "Char", "core": "Exp", "role": "Timing", "domain": "VS", "description": "Protocol-defined name of encounter"}, {"id": "variable:VS.VSDTC", "type": "Variable", "name": "VSDTC", "label": "Date/Time of Measurements", "data_type": "Char", "core": "Exp", "role": "Timing", "domain": "VS", "description": "Date/time in ISO 8601"}, {"id": "variable:VS.VSDY", "type": "Variable", "name": "VSDY", "label": "Study Day of Vital Signs", "data_type": "Num", "core": "Perm", "role": "Timing", "domain": "VS", "description": "Study day of vital signs measurement"}], "edges": [{"source": "standard:SDTM", "target": "standard:ADaM", "relationship": "tabulated_to_analysis", "description": "SDTM tabulation datasets are transformed into ADaM analysis datasets for statistical analysis"}, {"source": "standard:CDASH", "target": "standard:SDTM", "relationship": "collected_to_tabulated", "description": "CDASH (Clinical Data Acquisition Standards Harmonization) defines collection standards that map to SDTM tabulation domains"}, {"source": "standard:ADaM", "target": "standard:TLF", "relationship": "analysis_to_reporting", "description": "ADaM datasets are used to produce Tables, Listings, and Figures for regulatory submissions"}, {"source": "class:special_purpose", "target": "standard:SDTM", "relationship": "part_of"}, {"source": "class:interventions", "target": "standard:SDTM", "relationship": "part_of"}, {"source": "class:events", "target": "standard:SDTM", "relationship": "part_of"}, {"source": "class:findings", "target": "standard:SDTM", "relationship": "part_of"}, {"source": "class:trial_design", "target": "standard:SDTM", "relationship": "part_of"}, {"source": "domain:DM", "target": "class:special_purpose", "relationship": "belongs_to"}, {"source": "domain:DM", "target": "standard:SDTM", "relationship": "defined_in"}, {"source": "domain:DM", "target": "variable:DM.STUDYID", "relationship": "has_variable"}, {"source": "domain:DM", "target": "variable:DM.DOMAIN", "relationship": "has_variable"}, {"source": "domain:DM", "target": "variable:DM.USUBJID", "relationship": "has_variable"}, {"source": "domain:DM", "target": "variable:DM.SUBJID", "relationship": "has_variable"}, {"source": "domain:DM", "target": "variable:DM.RFSTDTC", "relationship": "has_variable"}, {"source": "domain:DM", "target": "variable:DM.RFENDTC", "relationship": "has_variable"}, {"source": "domain:DM", "target": "variable:DM.RFXSTDTC", "relationship": "has_variable"}, {"source": "domain:DM", "target": "variable:DM.RFXENDTC", "relationship": "has_variable"}, {"source": "domain:DM", "target": "variable:DM.RFICDTC", "relationship": "has_variable"}, {"source": "domain:DM", "target": "variable:DM.RFPENDTC", "relationship": "has_variable"}, {"source": "domain:DM", "target": "variable:DM.DTHDTC", "relationship": "has_variable"}, {"source": "domain:DM", "target": "variable:DM.DTHFL", "relationship": "has_variable"}, {"source": "domain:DM", "target": "variable:DM.SITEID", "relationship": "has_variable"}, {"source": "domain:DM", "target": "variable:DM.BRTHDTC", "relationship": "has_variable"}, {"source": "domain:DM", "target": "variable:DM.AGE", "relationship": "has_variable"}, {"source": "domain:DM", "target": "variable:DM.AGEU", "relationship": "has_variable"}, {"source": "domain:DM", "target": "variable:DM.SEX", "relationship": "has_variable"}, {"source": "domain:DM", "target": "variable:DM.RACE", "relationship": "has_variable"}, {"source": "domain:DM", "target": "variable:DM.ETHNIC", "relationship": "has_variable"}, {"source": "domain:DM", "target": "variable:DM.ARMCD", "relationship": "has_variable"}, {"source": "domain:DM", "target": "variable:DM.ARM", "relationship": "has_variable"}, {"source": "domain:DM", "target": "variable:DM.ACTARMCD", "relationship": "has_variable"}, {"source": "domain:DM", "target": "variable:DM.ACTARM", "relationship": "has_variable"}, {"source": "domain:DM", "target": "variable:DM.COUNTRY", "relationship": "has_variable"}, {"source": "domain:DM", "target": "variable:DM.DMDTC", "relationship": "has_variable"}, {"source": "domain:DM", "target": "variable:DM.DMDY", "relationship": "has_variable"}, {"source": "domain:DM", "target": "domain:AE", "relationship": "subject_link", "via_variable": "USUBJID", "description": "Each adverse event in AE links to a subject in DM via USUBJID"}, {"source": "domain:DM", "target": "domain:CM", "relationship": "subject_link", "via_variable": "USUBJID", "description": "Each medication record in CM links to a subject in DM via USUBJID"}, {"source": "domain:DM", "target": "domain:EX", "relationship": "subject_link", "via_variable": "USUBJID", "description": "Each exposure record in EX links to a subject in DM via USUBJID"}, {"source": "domain:DM", "target": "domain:LB", "relationship": "subject_link", "via_variable": "USUBJID", "description": "Each lab result in LB links to a subject in DM via USUBJID"}, {"source": "domain:DM", "target": "domain:VS", "relationship": "subject_link", "via_variable": "USUBJID", "description": "Each vital sign measurement in VS links to a subject in DM via USUBJID"}, {"source": "variable:DM.DTHFL", "target": "codelist:NY", "relationship": "uses_codelist"}, {"source": "variable:DM.AGEU", "target": "codelist:AGEU", "relationship": "uses_codelist"}, {"source": "variable:DM.SEX", "target": "codelist:SEX", "relationship": "uses_codelist"}, {"source": "variable:DM.RACE", "target": "codelist:RACE", "relationship": "uses_codelist"}, {"source": "variable:DM.ETHNIC", "target": "codelist:ETHNIC", "relationship": "uses_codelist"}, {"source": "variable:DM.COUNTRY", "target": "codelist:COUNTRY", "relationship": "uses_codelist"}, {"source": "domain:AE", "target": "class:events", "relationship": "belongs_to"}, {"source": "domain:AE", "target": "standard:SDTM", "relationship": "defined_in"}, {"source": "domain:AE", "target": "variable:AE.STUDYID", "relationship": "has_variable"}, {"source": "domain:AE", "target": "variable:AE.DOMAIN", "relationship": "has_variable"}, {"source": "domain:AE", "target": "variable:AE.USUBJID", "relationship": "has_variable"}, {"source": "domain:AE", "target": "variable:AE.AESEQ", "relationship": "has_variable"}, {"source": "domain:AE", "target": "variable:AE.AETERM", "relationship": "has_variable"}, {"source": "domain:AE", "target": "variable:AE.AEMODIFY", "relationship": "has_variable"}, {"source": "domain:AE", "target": "variable:AE.AEDECOD", "relationship": "has_variable"}, {"source": "domain:AE", "target": "variable:AE.AEBODSYS", "relationship": "has_variable"}, {"source": "domain:AE", "target": "variable:AE.AESEV", "relationship": "has_variable"}, {"source": "domain:AE", "target": "variable:AE.AESER", "relationship": "has_variable"}, {"source": "domain:AE", "target": "variable:AE.AEACN", "relationship": "has_variable"}, {"source": "domain:AE", "target": "variable:AE.AEREL", "relationship": "has_variable"}, {"source": "domain:AE", "target": "variable:AE.AEOUT", "relationship": "has_variable"}, {"source": "domain:AE", "target": "variable:AE.AESCAN", "relationship": "has_variable"}, {"source": "domain:AE", "target": "variable:AE.AESCONG", "relationship": "has_variable"}, {"source": "domain:AE", "target": "variable:AE.AESDISAB", "relationship": "has_variable"}, {"source": "domain:AE", "target": "variable:AE.AESDTH", "relationship": "has_variable"}, {"source": "domain:AE", "target": "variable:AE.AESHOSP", "relationship": "has_variable"}, {"source": "domain:AE", "target": "variable:AE.AESLIFE", "relationship": "has_variable"}, {"source": "domain:AE", "target": "variable:AE.AESOD", "relationship": "has_variable"}, {"source": "domain:AE", "target": "variable:AE.AESTDTC", "relationship": "has_variable"}, {"source": "domain:AE", "target": "variable:AE.AEENDTC", "relationship": "has_variable"}, {"source": "domain:AE", "target": "variable:AE.AESTDY", "relationship": "has_variable"}, {"source": "domain:AE", "target": "variable:AE.AEENDY", "relationship": "has_variable"}, {"source": "domain:AE", "target": "variable:AE.AEENRF", "relationship": "has_variable"}, {"source": "domain:AE", "target": "domain:CM", "relationship": "clinical_link", "via_variable": "CMINDC", "description": "Concomitant medications may be taken in response to adverse events (CM.CMINDC references AE)"}, {"source": "domain:AE", "target": "domain:EX", "relationship": "clinical_link", "via_variable": "AEACN", "description": "Adverse events may result in changes to study treatment exposure (AEACN: DOSE REDUCED, DRUG WITHDRAWN, etc.)"}, {"source": "variable:AE.AESEV", "target": "codelist:AESEV", "relationship": "uses_codelist"}, {"source": "variable:AE.AESER", "target": "codelist:NY", "relationship": "uses_codelist"}, {"source": "variable:AE.AEACN", "target": "codelist:ACN", "relationship": "uses_codelist"}, {"source": "variable:AE.AEOUT", "target": "codelist:OUT", "relationship": "uses_codelist"}, {"source": "variable:AE.AESCAN", "target": "codelist:NY", "relationship": "uses_codelist"}, {"source": "variable:AE.AESCONG", "target": "codelist:NY", "relationship": "uses_codelist"}, {"source": "variable:AE.AESDISAB", "target": "codelist:NY", "relationship": "uses_codelist"}, {"source": "variable:AE.AESDTH", "target": "codelist:NY", "relationship": "uses_codelist"}, {"source": "variable:AE.AESHOSP", "target": "codelist:NY", "relationship": "uses_codelist"}, {"source": "variable:AE.AESLIFE", "target": "codelist:NY", "relationship": "uses_codelist"}, {"source": "variable:AE.AESOD", "target": "codelist:NY", "relationship": "uses_codelist"}, {"source": "variable:AE.AEENRF", "target": "codelist:STENRF", "relationship": "uses_codelist"}, {"source": "domain:CM", "target": "class:interventions", "relationship": "belongs_to"}, {"source": "domain:CM", "target": "standard:SDTM", "relationship": "defined_in"}, {"source": "domain:CM", "target": "variable:CM.STUDYID", "relationship": "has_variable"}, {"source": "domain:CM", "target": "variable:CM.DOMAIN", "relationship": "has_variable"}, {"source": "domain:CM", "target": "variable:CM.USUBJID", "relationship": "has_variable"}, {"source": "domain:CM", "target": "variable:CM.CMSEQ", "relationship": "has_variable"}, {"source": "domain:CM", "target": "variable:CM.CMTRT", "relationship": "has_variable"}, {"source": "domain:CM", "target": "variable:CM.CMMODIFY", "relationship": "has_variable"}, {"source": "domain:CM", "target": "variable:CM.CMDECOD", "relationship": "has_variable"}, {"source": "domain:CM", "target": "variable:CM.CMCAT", "relationship": "has_variable"}, {"source": "domain:CM", "target": "variable:CM.CMSCAT", "relationship": "has_variable"}, {"source": "domain:CM", "target": "variable:CM.CMPRESP", "relationship": "has_variable"}, {"source": "domain:CM", "target": "variable:CM.CMOCCUR", "relationship": "has_variable"}, {"source": "domain:CM", "target": "variable:CM.CMDOSE", "relationship": "has_variable"}, {"source": "domain:CM", "target": "variable:CM.CMDOSU", "relationship": "has_variable"}, {"source": "domain:CM", "target": "variable:CM.CMDOSFRQ", "relationship": "has_variable"}, {"source": "domain:CM", "target": "variable:CM.CMROUTE", "relationship": "has_variable"}, {"source": "domain:CM", "target": "variable:CM.CMSTDTC", "relationship": "has_variable"}, {"source": "domain:CM", "target": "variable:CM.CMENDTC", "relationship": "has_variable"}, {"source": "domain:CM", "target": "variable:CM.CMSTDY", "relationship": "has_variable"}, {"source": "domain:CM", "target": "variable:CM.CMENDY", "relationship": "has_variable"}, {"source": "domain:CM", "target": "variable:CM.CMINDC", "relationship": "has_variable"}, {"source": "variable:CM.CMPRESP", "target": "codelist:NY", "relationship": "uses_codelist"}, {"source": "variable:CM.CMOCCUR", "target": "codelist:NY", "relationship": "uses_codelist"}, {"source": "variable:CM.CMDOSU", "target": "codelist:UNIT", "relationship": "uses_codelist"}, {"source": "variable:CM.CMDOSFRQ", "target": "codelist:FREQ", "relationship": "uses_codelist"}, {"source": "variable:CM.CMROUTE", "target": "codelist:ROUTE", "relationship": "uses_codelist"}, {"source": "domain:EX", "target": "class:interventions", "relationship": "belongs_to"}, {"source": "domain:EX", "target": "standard:SDTM", "relationship": "defined_in"}, {"source": "domain:EX", "target": "variable:EX.STUDYID", "relationship": "has_variable"}, {"source": "domain:EX", "target": "variable:EX.DOMAIN", "relationship": "has_variable"}, {"source": "domain:EX", "target": "variable:EX.USUBJID", "relationship": "has_variable"}, {"source": "domain:EX", "target": "variable:EX.EXSEQ", "relationship": "has_variable"}, {"source": "domain:EX", "target": "variable:EX.EXTRT", "relationship": "has_variable"}, {"source": "domain:EX", "target": "variable:EX.EXCAT", "relationship": "has_variable"}, {"source": "domain:EX", "target": "variable:EX.EXDOSE", "relationship": "has_variable"}, {"source": "domain:EX", "target": "variable:EX.EXDOSU", "relationship": "has_variable"}, {"source": "domain:EX", "target": "variable:EX.EXDOSFRM", "relationship": "has_variable"}, {"source": "domain:EX", "target": "variable:EX.EXDOSFRQ", "relationship": "has_variable"}, {"source": "domain:EX", "target": "variable:EX.EXROUTE", "relationship": "has_variable"}, {"source": "domain:EX", "target": "variable:EX.EXLOT", "relationship": "has_variable"}, {"source": "domain:EX", "target": "variable:EX.EXSTDTC", "relationship": "has_variable"}, {"source": "domain:EX", "target": "variable:EX.EXENDTC", "relationship": "has_variable"}, {"source": "domain:EX", "target": "variable:EX.EXSTDY", "relationship": "has_variable"}, {"source": "domain:EX", "target": "variable:EX.EXENDY", "relationship": "has_variable"}, {"source": "domain:EX", "target": "domain:LB", "relationship": "temporal_link", "via_variable": null, "description": "Laboratory tests are often scheduled relative to treatment exposure to monitor drug effects"}, {"source": "domain:EX", "target": "domain:VS", "relationship": "temporal_link", "via_variable": null, "description": "Vital signs are often measured relative to dosing events to monitor treatment impact"}, {"source": "variable:EX.EXDOSU", "target": "codelist:UNIT", "relationship": "uses_codelist"}, {"source": "variable:EX.EXDOSFRM", "target": "codelist:FRM", "relationship": "uses_codelist"}, {"source": "variable:EX.EXDOSFRQ", "target": "codelist:FREQ", "relationship": "uses_codelist"}, {"source": "variable:EX.EXROUTE", "target": "codelist:ROUTE", "relationship": "uses_codelist"}, {"source": "domain:LB", "target": "class:findings", "relationship": "belongs_to"}, {"source": "domain:LB", "target": "standard:SDTM", "relationship": "defined_in"}, {"source": "domain:LB", "target": "variable:LB.STUDYID", "relationship": "has_variable"}, {"source": "domain:LB", "target": "variable:LB.DOMAIN", "relationship": "has_variable"}, {"source": "domain:LB", "target": "variable:LB.USUBJID", "relationship": "has_variable"}, {"source": "domain:LB", "target": "variable:LB.LBSEQ", "relationship": "has_variable"}, {"source": "domain:LB", "target": "variable:LB.LBTESTCD", "relationship": "has_variable"}, {"source": "domain:LB", "target": "variable:LB.LBTEST", "relationship": "has_variable"}, {"source": "domain:LB", "target": "variable:LB.LBCAT", "relationship": "has_variable"}, {"source": "domain:LB", "target": "variable:LB.LBSCAT", "relationship": "has_variable"}, {"source": "domain:LB", "target": "variable:LB.LBORRES", "relationship": "has_variable"}, {"source": "domain:LB", "target": "variable:LB.LBORRESU", "relationship": "has_variable"}, {"source": "domain:LB", "target": "variable:LB.LBORNRLO", "relationship": "has_variable"}, {"source": "domain:LB", "target": "variable:LB.LBORNRHI", "relationship": "has_variable"}, {"source": "domain:LB", "target": "variable:LB.LBSTRESC", "relationship": "has_variable"}, {"source": "domain:LB", "target": "variable:LB.LBSTRESN", "relationship": "has_variable"}, {"source": "domain:LB", "target": "variable:LB.LBSTRESU", "relationship": "has_variable"}, {"source": "domain:LB", "target": "variable:LB.LBSTNRLO", "relationship": "has_variable"}, {"source": "domain:LB", "target": "variable:LB.LBSTNRHI", "relationship": "has_variable"}, {"source": "domain:LB", "target": "variable:LB.LBNRIND", "relationship": "has_variable"}, {"source": "domain:LB", "target": "variable:LB.LBSPEC", "relationship": "has_variable"}, {"source": "domain:LB", "target": "variable:LB.LBMETHOD", "relationship": "has_variable"}, {"source": "domain:LB", "target": "variable:LB.LBBLFL", "relationship": "has_variable"}, {"source": "domain:LB", "target": "variable:LB.LBFAST", "relationship": "has_variable"}, {"source": "domain:LB", "target": "variable:LB.VISITNUM", "relationship": "has_variable"}, {"source": "domain:LB", "target": "variable:LB.VISIT", "relationship": "has_variable"}, {"source": "domain:LB", "target": "variable:LB.LBDTC", "relationship": "has_variable"}, {"source": "domain:LB", "target": "variable:LB.LBDY", "relationship": "has_variable"}, {"source": "domain:LB", "target": "domain:AE", "relationship": "clinical_link", "via_variable": null, "description": "Abnormal lab values (LBNRIND = HIGH/LOW) may correlate with or trigger adverse events"}, {"source": "variable:LB.LBTESTCD", "target": "codelist:LBTESTCD", "relationship": "uses_codelist"}, {"source": "variable:LB.LBTEST", "target": "codelist:LBTEST", "relationship": "uses_codelist"}, {"source": "variable:LB.LBORRESU", "target": "codelist:UNIT", "relationship": "uses_codelist"}, {"source": "variable:LB.LBSTRESU", "target": "codelist:UNIT", "relationship": "uses_codelist"}, {"source": "variable:LB.LBNRIND", "target": "codelist:NRIND", "relationship": "uses_codelist"}, {"source": "variable:LB.LBSPEC", "target": "codelist:SPEC", "relationship": "uses_codelist"}, {"source": "variable:LB.LBMETHOD", "target": "codelist:METHOD", "relationship": "uses_codelist"}, {"source": "variable:LB.LBBLFL", "target": "codelist:NY", "relationship": "uses_codelist"}, {"source": "variable:LB.LBFAST", "target": "codelist:NY", "relationship": "uses_codelist"}, {"source": "domain:VS", "target": "class:findings", "relationship": "belongs_to"}, {"source": "domain:VS", "target": "standard:SDTM", "relationship": "defined_in"}, {"source": "domain:VS", "target": "variable:VS.STUDYID", "relationship": "has_variable"}, {"source": "domain:VS", "target": "variable:VS.DOMAIN", "relationship": "has_variable"}, {"source": "domain:VS", "target": "variable:VS.USUBJID", "relationship": "has_variable"}, {"source": "domain:VS", "target": "variable:VS.VSSEQ", "relationship": "has_variable"}, {"source": "domain:VS", "target": "variable:VS.VSTESTCD", "relationship": "has_variable"}, {"source": "domain:VS", "target": "variable:VS.VSTEST", "relationship": "has_variable"}, {"source": "domain:VS", "target": "variable:VS.VSCAT", "relationship": "has_variable"}, {"source": "domain:VS", "target": "variable:VS.VSPOS", "relationship": "has_variable"}, {"source": "domain:VS", "target": "variable:VS.VSORRES", "relationship": "has_variable"}, {"source": "domain:VS", "target": "variable:VS.VSORRESU", "relationship": "has_variable"}, {"source": "domain:VS", "target": "variable:VS.VSSTRESC", "relationship": "has_variable"}, {"source": "domain:VS", "target": "variable:VS.VSSTRESN", "relationship": "has_variable"}, {"source": "domain:VS", "target": "variable:VS.VSSTRESU", "relationship": "has_variable"}, {"source": "domain:VS", "target": "variable:VS.VSSTAT", "relationship": "has_variable"}, {"source": "domain:VS", "target": "variable:VS.VSLOC", "relationship": "has_variable"}, {"source": "domain:VS", "target": "variable:VS.VSBLFL", "relationship": "has_variable"}, {"source": "domain:VS", "target": "variable:VS.VISITNUM", "relationship": "has_variable"}, {"source": "domain:VS", "target": "variable:VS.VISIT", "relationship": "has_variable"}, {"source": "domain:VS", "target": "variable:VS.VSDTC", "relationship": "has_variable"}, {"source": "domain:VS", "target": "variable:VS.VSDY", "relationship": "has_variable"}, {"source": "variable:VS.VSTESTCD", "target": "codelist:VSTESTCD", "relationship": "uses_codelist"}, {"source": "variable:VS.VSTEST", "target": "codelist:VSTEST", "relationship": "uses_codelist"}, {"source": "variable:VS.VSPOS", "target": "codelist:POSITION", "relationship": "uses_codelist"}, {"source": "variable:VS.VSORRESU", "target": "codelist:UNIT", "relationship": "uses_codelist"}, {"source": "variable:VS.VSSTRESU", "target": "codelist:UNIT", "relationship": "uses_codelist"}, {"source": "variable:VS.VSSTAT", "target": "codelist:STAT", "relationship": "uses_codelist"}, {"source": "variable:VS.VSLOC", "target": "codelist:LOC", "relationship": "uses_codelist"}, {"source": "variable:VS.VSBLFL", "target": "codelist:NY", "relationship": "uses_codelist"}]}, "domains": {"DM": {"domain_code": "DM", "name": "Demographics", "description": "One record per subject. Contains demographic and baseline information.", "structure": "One record per subject", "class": "Special Purpose", "variables": [{"name": "ACTARM", "label": "Description of Actual Arm", "type": "Char", "core": "Req", "role": "Synonym Qualifier", "description": "Description of the actual arm for a subject", "codelist": null}, {"name": "ACTARMCD", "label": "Actual Arm Code", "type": "Char", "core": "Req", "role": "Record Qualifier", "description": "Code for the actual arm for a subject", "codelist": null}, {"name": "AGE", "label": "Age", "type": "Num", "core": "Exp", "role": "Record Qualifier", "description": "Age at reference start date", "codelist": null}, {"name": "AGEU", "label": "Age Units", "type": "Char", "core": "Exp", "role": "Variable Qualifier", "description": "Units associated with AGE", "codelist": {"id": "AGEU", "name": "Age Unit", "values": ["DAYS", "HOURS", "MONTHS", "WEEKS", "YEARS"]}}, {"name": "ARM", "label": "Description of Planned Arm", "type": "Char", "core": "Req", "role": "Synonym Qualifier", "description": "Name of the arm to which the subject was assigned", "codelist": null}, {"name": "ARMCD", "label": "Planned Arm Code", "type": "Char", "core": "Req", "role": "Record Qualifier", "description": "Short description of the planned arm for a subject", "codelist": null}, {"name": "BRTHDTC", "label": "Date/Time of Birth", "type": "Char", "core": "Perm", "role": "Record Qualifier", "description": "Date/time of birth", "codelist": null}, {"name": "COUNTRY", "label": "Country", "type": "Char", "core": "Req", "role": "Record Qualifier", "description": "Country of the investigational site (ISO 3166-1 Alpha-3)", "codelist": {"id": "COUNTRY", "name": "Country", "values": ["AUS", "AUT", "BEL", "BRA", "CAN", "CHE", "CHN", "CZE", "DEU", "ESP", "FRA", "GBR", "IND", "ITA", "JPN", "KOR", "NLD", "POL", "SWE", "USA"]}}, {"name": "DMDTC", "label": "Date/Time of Collection", "type": "Char", "core": "Perm", "role": "Timing", "description": "Date/time of demographic data collection", "codelist": null}, {"name": "DMDY", "label": "Study Day of Collection", "type": "Num", "core": "Perm", "role": "Timing", "description": "Study day of demographic data collection", "codelist": null}, {"name": "DOMAIN", "label": "Domain Abbreviation", "type": "Char", "core": "Req", "role": "Identifier", "description": "Two-character abbreviation for the domain", "codelist": null}, {"name": "DTHDTC", "label": "Date/Time of Death", "type": "Char", "core": "Exp", "role": "Record Qualifier", "description": "Date/time of death of the subject in ISO 8601", "codelist": null}, {"name": "DTHFL", "label": "Subject Death Flag", "type": "Char", "core": "Exp", "role": "Record Qualifier", "description": "Indicates the subject died (Y or N)", "codelist": {"id": "NY", "name": "No Yes Response", "values": ["N", "Y"]}}, {"name": "ETHNIC", "label": "Ethnicity", "type": "Char", "core": "Exp", "role": "Record Qualifier", "description": "The ethnicity of the subject", "codelist": {"id": "ETHNIC", "name": "Ethnicity", "values": ["HISPANIC OR LATINO", "NOT HISPANIC OR LATINO", "NOT REPORTED", "UNKNOWN"]}}, {"name": "RACE", "label": "Race", "type": "Char", "core": "Exp", "role": "Record Qualifier", "description": "Race of the subject (from a multi-race code list)", "codelist": {"id": "RACE", "name": "Race", "values": ["AMERICAN INDIAN OR ALASKA NATIVE", "ASIAN", "BLACK OR AFRICAN AMERICAN", "MULTIPLE", "NATIVE HAWAIIAN OR OTHER PACIFIC ISLANDER", "NOT REPORTED", "UNKNOWN", "WHITE"]}}, {"name": "RFENDTC", "label": "Subject Reference End Date/Time", "type": "Char", "core": "Exp", "role": "Record Qualifier", "description": "Reference end date/time for the subject in ISO 8601", "codelist": null}, {"name": "RFICDTC", "label": "Date/Time of Informed Consent", "type": "Char", "core": "Exp", "role": "Record Qualifier", "description": "Date/time of informed consent in ISO 8601", "codelist": null}, {"name": "RFPENDTC", "label": "Date/Time of End of Participation", "type": "Char", "core": "Exp", "role": "Record Qualifier", "description": "Date/time of the end of a subject's participation in a study", "codelist": null}, {"name": "RFSTDTC", "label": "Subject Reference Start Date/Time", "type": "Char", "core": "Exp", "role": "Record Qualifier", "description": "Reference start date/time for the subject in ISO 8601", "codelist": null}, {"name": "RFXENDTC", "label": "Date/Time of Last Study Treatment", "type": "Char", "core": "Exp", "role": "Record Qualifier", "description": "Last date/time of study treatment exposure", "codelist": null}, {"name": "RFXSTDTC", "label": "Date/Time of First Study Treatment", "type": "Char", "core": "Exp", "role": "Record Qualifier", "description": "First date/time of study treatment exposure", "codelist": null}, {"name": "SEX", "label": "Sex", "type": "Char", "core": "Req", "role": "Record Qualifier", "description": "Sex of the subject", "codelist": {"id": "SEX", "name": "Sex", "values": ["F", "M", "U", "UNDIFFERENTIATED"]}}, {"name": "SITEID", "label": "Study Site Identifier", "type": "Char", "core": "Req", "role": "Record Qualifier", "description": "Unique identifier for a site", "codelist": null}, {"name": "STUDYID", "label": "Study Identifier", "type": "Char", "core": "Req", "role": "Identifier", "description": "Unique identifier for a study", "codelist": null}, {"name": "SUBJID", "label": "Subject Identifier for the Study", "type": "Char", "core": "Req", "role": "Topic", "description": "Subject identifier within a study", "codelist": null}, {"name": "USUBJID", "label": "Unique Subject Identifier", "type": "Char", "core": "Req", "role": "Identifier", "description": "Identifier used to uniquely identify a subject across all studies for all applications", "codelist": null}], "related_domains": [{"domain": "AE", "relationship": "subject_link", "via_variable": "USUBJID", "description": "Each adverse event in AE links to a subject in DM via USUBJID"}, {"domain": "CM", "relationship": "subject_link", "via_variable": "USUBJID", "description": "Each medication record in CM links to a subject in DM via USUBJID"}, {"domain": "EX", "relationship": "subject_link", "via_variable": "USUBJID", "description": "Each exposure record in EX links to a subject in DM via USUBJID"}, {"domain": "LB", "relationship": "subject_link", "via_variable": "USUBJID", "description": "Each lab result in LB links to a subject in DM via USUBJID"}, {"domain": "VS", "relationship": "subject_link", "via_variable": "USUBJID", "description": "Each vital sign measurement in VS links to a subject in DM via USUBJID"}]}, "AE": {"domain_code": "AE", "name": "Adverse Events", "description": "One record per adverse event per subject. Contains adverse event data.", "structure": "One record per adverse event per subject", "class": "Events", "variables": [{"name": "AEACN", "label": "Action Taken with Study Treatment", "type": "Char", "core": "Exp", "role": "Record Qualifier", "description": "Action taken with study treatment as a result of the event", "codelist": {"id": "ACN", "name": "Action Taken with Study Treatment", "values": ["DOSE INCREASED", "DOSE NOT CHANGED", "DOSE REDUCED", "DRUG INTERRUPTED", "DRUG WITHDRAWN", "NOT APPLICABLE", "UNKNOWN"]}}, {"name": "AEBODSYS", "label": "Body System or Organ Class", "type": "Char", "core": "Req", "role": "Record Qualifier", "description": "Dictionary-derived (MedDRA System Organ Class)", "codelist": null}, {"name": "AEDECOD", "label": "Dictionary-Derived Term", "type": "Char", "core": "Req", "role": "Synonym Qualifier", "description": "Dictionary-derived term (MedDRA Preferred Term)", "codelist": null}, {"name": "AEENDTC", "label": "End Date/Time of Adverse Event", "type": "Char", "core": "Exp", "role": "Timing", "description": "End date/time of the adverse event in ISO 8601", "codelist": null}, {"name": "AEENDY", "label": "Study Day of End of Adverse Event", "type": "Num", "core": "Perm", "role": "Timing", "description": "Study day of end of adverse event relative to reference date", "codelist": null}, {"name": "AEENRF", "label": "End Relative to Reference Period", "type": "Char", "core": "Perm", "role": "Timing", "description": "Describes the end of the event relative to the reference period", "codelist": {"id": "STENRF", "name": "Start/End Relative to Reference Period", "values": ["AFTER", "BEFORE", "DURING", "DURING/AFTER"]}}, {"name": "AEMODIFY", "label": "Modified Reported Term", "type": "Char", "core": "Perm", "role": "Synonym Qualifier", "description": "Modified reported term if different from AETERM", "codelist": null}, {"name": "AEOUT", "label": "Outcome of Adverse Event", "type": "Char", "core": "Exp", "role": "Record Qualifier", "description": "Description of the outcome of the event", "codelist": {"id": "OUT", "name": "Outcome of Event", "values": ["FATAL", "NOT RECOVERED/NOT RESOLVED", "RECOVERED/RESOLVED", "RECOVERED/RESOLVED WITH SEQUELAE", "RECOVERING/RESOLVING", "UNKNOWN"]}}, {"name": "AEREL", "label": "Causality", "type": "Char", "core": "Exp", "role": "Record Qualifier", "description": "Investigator's opinion of the relationship of the event to treatment", "codelist": null}, {"name": "AESCAN", "label": "Involves Cancer", "type": "Char", "core": "Perm", "role": "Record Qualifier", "description": "Is the event a cancer?", "codelist": {"id": "NY", "name": "No Yes Response", "values": ["N", "Y"]}}, {"name": "AESCONG", "label": "Congenital Anomaly or Birth Defect", "type": "Char", "core": "Perm", "role": "Record Qualifier", "description": "Is the event a congenital anomaly?", "codelist": {"id": "NY", "name": "No Yes Response", "values": ["N", "Y"]}}, {"name": "AESDISAB", "label": "Persist or Signif Disability/Incapacity", "type": "Char", "core": "Perm", "role": "Record Qualifier", "description": "Event results in persistent or significant disability?", "codelist": {"id": "NY", "name": "No Yes Response", "values": ["N", "Y"]}}, {"name": "AESDTH", "label": "Results in Death", "type": "Char", "core": "Perm", "role": "Record Qualifier", "description": "Is the event associated with the outcome of death?", "codelist": {"id": "NY", "name": "No Yes Response", "values": ["N", "Y"]}}, {"name": "AESEQ", "label": "Sequence Number", "type": "Num", "core": "Req", "role": "Identifier", "description": "Sequence number given to ensure uniqueness of subject records", "codelist": null}, {"name": "AESER", "label": "Serious Event", "type": "Char", "core": "Req", "role": "Record Qualifier", "description": "Is the event classified as serious?", "codelist": {"id": "NY", "name": "No Yes Response", "values": ["N", "Y"]}}, {"name": "AESEV", "label": "Severity/Intensity", "type": "Char", "core": "Exp", "role": "Record Qualifier", "description": "The severity or intensity of the event", "codelist": {"id": "AESEV", "name": "Severity/Intensity Scale for Adverse Events", "values": ["MILD", "MODERATE", "SEVERE"]}}, {"name": "AESHOSP", "label": "Requires or Prolongs Hospitalization", "type": "Char", "core": "Perm", "role": "Record Qualifier", "description": "Event requires or prolongs hospitalization?", "codelist": {"id": "NY", "name": "No Yes Response", "values": ["N", "Y"]}}, {"name": "AESLIFE", "label": "Is Life Threatening", "type": "Char", "core": "Perm", "role": "Record Qualifier", "description": "Is the event life threatening?", "codelist": {"id": "NY", "name": "No Yes Response", "values": ["N", "Y"]}}, {"name": "AESOD", "label": "Occurred with Overdose", "type": "Char", "core": "Perm", "role": "Record Qualifier", "description": "Event occurred with an overdose?", "codelist": {"id": "NY", "name": "No Yes Response", "values": ["N", "Y"]}}, {"name": "AESTDTC", "label": "Start Date/Time of Adverse Event", "type": "Char", "core": "Exp", "role": "Timing", "description": "Start date/time of the adverse event in ISO 8601", "codelist": null}, {"name": "AESTDY", "label": "Study Day of Start of Adverse Event", "type": "Num", "core": "Perm", "role": "Timing", "description": "Study day of start of adverse event relative to reference date", "codelist": null}, {"name": "AETERM", "label": "Reported Term for the Adverse Event", "type": "Char", "core": "Req", "role": "Topic", "description": "Verbatim name of the adverse event as reported by the investigator", "codelist": null}, {"name": "DOMAIN", "label": "Domain Abbreviation", "type": "Char", "core": "Req", "role": "Identifier", "description": "Two-character abbreviation for the domain", "codelist": null}, {"name": "STUDYID", "label": "Study Identifier", "type": "Char", "core": "Req", "role": "Identifier", "description": "Unique identifier for a study", "codelist": null}, {"name": "USUBJID", "label": "Unique Subject Identifier", "type": "Char", "core": "Req", "role": "Identifier", "description": "Identifier used to uniquely identify a subject across all studies", "codelist": null}], "related_domains": [{"domain": "CM", "relationship": "clinical_link", "via_variable": "CMINDC", "description": "Concomitant medications may be taken in response to adverse events (CM.CMINDC references AE)"}, {"domain": "EX", "relationship": "clinical_link", "via_variable": "AEACN", "description": "Adverse events may result in changes to study treatment exposure (AEACN: DOSE REDUCED, DRUG WITHDRAWN, etc.)"}, {"domain": "DM", "relationship": "subject_link", "direction": "incoming", "via_variable": "USUBJID", "description": "Each adverse event in AE links to a subject in DM via USUBJID"}, {"domain": "LB", "relationship": "clinical_link", "direction": "incoming", "via_variable": null, "description": "Abnormal lab values (LBNRIND = HIGH/LOW) may correlate with or trigger adverse events"}]}, "CM": {"domain_code": "CM", "name": "Concomitant Medications", "description": "One record per medication per subject. Contains concomitant and prior medication data.", "structure": "One record per recorded medication occurrence per subject", "class": "Interventions", "variables": [{"name": "CMCAT", "label": "Category for Medication", "type": "Char", "core": "Perm", "role": "Grouping Qualifier", "description": "Used to define a category of medication", "codelist": null}, {"name": "CMDECOD", "label": "Standardized Medication Name", "type": "Char", "core": "Exp", "role": "Synonym Qualifier", "description": "Standardized or dictionary-derived name (WHODrug preferred name)", "codelist": null}, {"name": "CMDOSE", "label": "Dose per Administration", "type": "Num", "core": "Exp", "role": "Record Qualifier", "description": "Amount of medication administered per dose", "codelist": null}, {"name": "CMDOSFRQ", "label": "Dosing Frequency per Interval", "type": "Char", "core": "Exp", "role": "Variable Qualifier", "description": "Usually expressed as the number of doses per time period", "codelist": {"id": "FREQ", "name": "Frequency", "values": ["BID", "ONCE", "PRN", "Q12H", "Q2W", "Q4H", "Q6H", "Q8H", "QD", "QID", "QM", "QOD", "QW", "TID"]}}, {"name": "CMDOSU", "label": "Dose Units", "type": "Char", "core": "Exp", "role": "Variable Qualifier", "description": "Units for CMDOSE", "codelist": {"id": "UNIT", "name": "Units", "values": ["%", "10^12/L", "10^9/L", "C", "F", "IN", "LB", "U/L", "beats/min", "cm", "g/L", "g/dL", "kg", "mEq/L", "mL/min", "mg", "mg/dL", "mmHg", "mmol/L", "ng/mL", "pg/mL", "umol/L"]}}, {"name": "CMENDTC", "label": "End Date/Time of Medication", "type": "Char", "core": "Exp", "role": "Timing", "description": "End date/time in ISO 8601", "codelist": null}, {"name": "CMENDY", "label": "Study Day of End of Medication", "type": "Num", "core": "Perm", "role": "Timing", "description": "Study day of end of medication", "codelist": null}, {"name": "CMINDC", "label": "Indication", "type": "Char", "core": "Exp", "role": "Record Qualifier", "description": "Indication for the medication, can be linked to AE", "codelist": null}, {"name": "CMMODIFY", "label": "Modified Reported Name", "type": "Char", "core": "Perm", "role": "Synonym Qualifier", "description": "Modified reported name, if different from CMTRT", "codelist": null}, {"name": "CMOCCUR", "label": "CM Occurrence", "type": "Char", "core": "Perm", "role": "Record Qualifier", "description": "Did the medication occur? Used with CMPRESP", "codelist": {"id": "NY", "name": "No Yes Response", "values": ["N", "Y"]}}, {"name": "CMPRESP", "label": "CM Pre-Specified", "type": "Char", "core": "Perm", "role": "Variable Qualifier", "description": "Was medication pre-specified on CRF?", "codelist": {"id": "NY", "name": "No Yes Response", "values": ["N", "Y"]}}, {"name": "CMROUTE", "label": "Route of Administration", "type": "Char", "core": "Exp", "role": "Variable Qualifier", "description": "Route of administration", "codelist": {"id": "ROUTE", "name": "Route of Administration", "values": ["INHALATION", "INTRAMUSCULAR", "INTRAVENOUS", "NASAL", "OPHTHALMIC", "ORAL", "RECTAL", "SUBCUTANEOUS", "TOPICAL", "TRANSDERMAL"]}}, {"name": "CMSCAT", "label": "Subcategory for Medication", "type": "Char", "core": "Perm", "role": "Grouping Qualifier", "description": "Used to define a subcategory of medication", "codelist": null}, {"name": "CMSEQ", "label": "Sequence Number", "type": "Num", "core": "Req", "role": "Identifier", "description": "Sequence number to ensure uniqueness of records", "codelist": null}, {"name": "CMSTDTC", "label": "Start Date/Time of Medication", "type": "Char", "core": "Exp", "role": "Timing", "description": "Start date/time in ISO 8601", "codelist": null}, {"name": "CMSTDY", "label": "Study Day of Start of Medication", "type": "Num", "core": "Perm", "role": "Timing", "description": "Study day of start of medication", "codelist": null}, {"name": "CMTRT", "label": "Reported Name of Drug, Med, or Therapy", "type": "Char", "core": "Req", "role": "Topic", "description": "Verbatim medication name as reported", "codelist": null}, {"name": "DOMAIN", "label": "Domain Abbreviation", "type": "Char", "core": "Req", "role": "Identifier", "description": "Two-character abbreviation for the domain", "codelist": null}, {"name": "STUDYID", "label": "Study Identifier", "type": "Char", "core": "Req", "role": "Identifier", "description": "Unique identifier for a study", "codelist": null}, {"name": "USUBJID", "label": "Unique Subject Identifier", "type": "Char", "core": "Req", "role": "Identifier", "description": "Identifier used to uniquely identify a subject across all studies", "codelist": null}], "related_domains": [{"domain": "DM", "relationship": "subject_link", "direction": "incoming", "via_variable": "USUBJID", "description": "Each medication record in CM links to a subject in DM via USUBJID"}, {"domain": "AE", "relationship": "clinical_link", "direction": "incoming", "via_variable": "CMINDC", "description": "Concomitant medications may be taken in response to adverse events (CM.CMINDC references AE)"}]}, "EX": {"domain_code": "EX", "name": "Exposure", "description": "One record per constant-dosing interval per subject. Contains study drug exposure data.", "structure": "One record per constant-dosing interval per subject", "class": "Interventions", "variables": [{"name": "DOMAIN", "label": "Domain Abbreviation", "type": "Char", "core": "Req", "role": "Identifier", "description": "Two-character abbreviation for the domain", "codelist": null}, {"name": "EXCAT", "label": "Category of Treatment", "type": "Char", "core": "Perm", "role": "Grouping Qualifier", "description": "Category for the treatment", "codelist": null}, {"name": "EXDOSE", "label": "Dose", "type": "Num", "core": "Req", "role": "Record Qualifier", "description": "Amount of study treatment administered", "codelist": null}, {"name": "EXDOSFRM", "label": "Dose Form", "type": "Char", "core": "Exp", "role": "Variable Qualifier", "description": "Pharmaceutical dose form of study treatment", "codelist": {"id": "FRM", "name": "Pharmaceutical Dosage Form", "values": ["CAPSULE", "CREAM", "INHALER", "INJECTION", "OINTMENT", "PATCH", "POWDER", "SOLUTION", "SUSPENSION", "TABLET"]}}, {"name": "EXDOSFRQ", "label": "Dosing Frequency per Interval", "type": "Char", "core": "Exp", "role": "Variable Qualifier", "description": "Frequency of dosing", "codelist": {"id": "FREQ", "name": "Frequency", "values": ["BID", "ONCE", "PRN", "Q12H", "Q2W", "Q4H", "Q6H", "Q8H", "QD", "QID", "QM", "QOD", "QW", "TID"]}}, {"name": "EXDOSU", "label": "Dose Units", "type": "Char", "core": "Req", "role": "Variable Qualifier", "description": "Units for EXDOSE", "codelist": {"id": "UNIT", "name": "Units", "values": ["%", "10^12/L", "10^9/L", "C", "F", "IN", "LB", "U/L", "beats/min", "cm", "g/L", "g/dL", "kg", "mEq/L", "mL/min", "mg", "mg/dL", "mmHg", "mmol/L", "ng/mL", "pg/mL", "umol/L"]}}, {"name": "EXENDTC", "label": "End Date/Time of Treatment", "type": "Char", "core": "Exp", "role": "Timing", "description": "End date/time of treatment in ISO 8601", "codelist": null}, {"name": "EXENDY", "label": "Study Day of End of Treatment", "type": "Num", "core": "Perm", "role": "Timing", "description": "Study day of end of treatment", "codelist": null}, {"name": "EXLOT", "label": "Lot Number", "type": "Char", "core": "Perm", "role": "Record Qualifier", "description": "Lot number of study treatment", "codelist": null}, {"name": "EXROUTE", "label": "Route of Administration", "type": "Char", "core": "Exp", "role": "Variable Qualifier", "description": "Route of administration", "codelist": {"id": "ROUTE", "name": "Route of Administration", "values": ["INHALATION", "INTRAMUSCULAR", "INTRAVENOUS", "NASAL", "OPHTHALMIC", "ORAL", "RECTAL", "SUBCUTANEOUS", "TOPICAL", "TRANSDERMAL"]}}, {"name": "EXSEQ", "label": "Sequence Number", "type": "Num", "core": "Req", "role": "Identifier", "description": "Sequence number to ensure uniqueness of records", "codelist": null}, {"name": "EXSTDTC", "label": "Start Date/Time of Treatment", "type": "Char", "core": "Exp", "role": "Timing", "description": "Start date/time of treatment in ISO 8601", "codelist": null}, {"name": "EXSTDY", "label": "Study Day of Start of Treatment", "type": "Num", "core": "Perm", "role": "Timing", "description": "Study day of start of treatment", "codelist": null}, {"name": "EXTRT", "label": "Name of Treatment", "type": "Char", "core": "Req", "role": "Topic", "description": "Name of the study drug or treatment administered", "codelist": null}, {"name": "STUDYID", "label": "Study Identifier", "type": "Char", "core": "Req", "role": "Identifier", "description": "Unique identifier for a study", "codelist": null}, {"name": "USUBJID", "label": "Unique Subject Identifier", "type": "Char", "core": "Req", "role": "Identifier", "description": "Identifier used to uniquely identify a subject across all studies", "codelist": null}], "related_domains": [{"domain": "LB", "relationship": "temporal_link", "via_variable": null, "description": "Laboratory tests are often scheduled relative to treatment exposure to monitor drug effects"}, {"domain": "VS", "relationship": "temporal_link", "via_variable": null, "description": "Vital signs are often measured relative to dosing events to monitor treatment impact"}, {"domain": "DM", "relationship": "subject_link", "direction": "incoming", "via_variable": "USUBJID", "description": "Each exposure record in EX links to a subject in DM via USUBJID"}, {"domain": "AE", "relationship": "clinical_link", "direction": "incoming", "via_variable": "AEACN", "description": "Adverse events may result in changes to study treatment exposure (AEACN: DOSE REDUCED, DRUG WITHDRAWN, etc.)"}]}, "LB": {"domain_code": "LB", "name": "Laboratory Test Results", "description": "One record per lab test per time point per subject. Contains laboratory test result data.", "structure": "One record per lab test per time point per subject", "class": "Findings", "variables": [{"name": "DOMAIN", "label": "Domain Abbreviation", "type": "Char", "core": "Req", "role": "Identifier", "description": "Two-character abbreviation for the domain", "codelist": null}, {"name": "LBBLFL", "label": "Baseline Flag", "type": "Char", "core": "Exp", "role": "Record Qualifier", "description": "Indicator for whether the result is a baseline value", "codelist": {"id": "NY", "name": "No Yes Response", "values": ["N", "Y"]}}, {"name": "LBCAT", "label": "Category for Lab Test", "type": "Char", "core": "Exp", "role": "Grouping Qualifier", "description": "Used to define a category of lab tests (e.g., HEMATOLOGY, CHEMISTRY)", "codelist": null}, {"name": "LBDTC", "label": "Date/Time of Specimen Collection", "type": "Char", "core": "Exp", "role": "Timing", "description": "Date/time of specimen collection in ISO 8601", "codelist": null}, {"name": "LBDY", "label": "Study Day of Specimen Collection", "type": "Num", "core": "Perm", "role": "Timing", "description": "Study day of specimen collection", "codelist": null}, {"name": "LBFAST", "label": "Fasting Status", "type": "Char", "core": "Perm", "role": "Record Qualifier", "description": "Was the subject fasting for this specimen collection?", "codelist": {"id": "NY", "name": "No Yes Response", "values": ["N", "Y"]}}, {"name": "LBMETHOD", "label": "Method of Test or Examination", "type": "Char", "core": "Perm", "role": "Record Qualifier", "description": "Method of the laboratory test", "codelist": {"id": "METHOD", "name": "Method of Test or Examination", "values": ["COLORIMETRIC", "ELECTROCHEMILUMINESCENCE", "ENZYMATIC", "FLOW CYTOMETRY", "IMMUNOASSAY", "SPECTROPHOTOMETRY"]}}, {"name": "LBNRIND", "label": "Reference Range Indicator", "type": "Char", "core": "Exp", "role": "Variable Qualifier", "description": "Indicates where the value falls relative to the reference range (NORMAL, LOW, HIGH)", "codelist": {"id": "NRIND", "name": "Reference Range Indicator", "values": ["ABNORMAL", "ABNORMAL HIGH", "ABNORMAL LOW", "HIGH", "LOW", "NORMAL"]}}, {"name": "LBORNRHI", "label": "Reference Range Upper Limit-Orig Unit", "type": "Char", "core": "Exp", "role": "Variable Qualifier", "description": "Upper limit of the reference range in original units", "codelist": null}, {"name": "LBORNRLO", "label": "Reference Range Lower Limit-Orig Unit", "type": "Char", "core": "Exp", "role": "Variable Qualifier", "description": "Lower limit of the reference range in original units", "codelist": null}, {"name": "LBORRES", "label": "Result or Finding in Original Units", "type": "Char", "core": "Exp", "role": "Result Qualifier", "description": "Result of the lab test as originally received", "codelist": null}, {"name": "LBORRESU", "label": "Original Units", "type": "Char", "core": "Exp", "role": "Variable Qualifier", "description": "Original units for LBORRES", "codelist": {"id": "UNIT", "name": "Units", "values": ["%", "10^12/L", "10^9/L", "C", "F", "IN", "LB", "U/L", "beats/min", "cm", "g/L", "g/dL", "kg", "mEq/L", "mL/min", "mg", "mg/dL", "mmHg", "mmol/L", "ng/mL", "pg/mL", "umol/L"]}}, {"name": "LBSCAT", "label": "Subcategory for Lab Test", "type": "Char", "core": "Perm", "role": "Grouping Qualifier", "description": "Subcategory for the lab test", "codelist": null}, {"name": "LBSEQ", "label": "Sequence Number", "type": "Num", "core": "Req", "role": "Identifier", "description": "Sequence number to ensure uniqueness", "codelist": null}, {"name": "LBSPEC", "label": "Specimen Type", "type": "Char", "core": "Exp", "role": "Record Qualifier", "description": "Type of specimen (e.g., BLOOD, SERUM, URINE, PLASMA)", "codelist": {"id": "SPEC", "name": "Specimen Type", "values": ["BLOOD", "CEREBROSPINAL FLUID", "PLASMA", "SERUM", "URINE", "WHOLE BLOOD"]}}, {"name": "LBSTNRHI", "label": "Reference Range Upper Limit-Std Units", "type": "Num", "core": "Exp", "role": "Variable Qualifier", "description": "Upper limit of the reference range in standard units", "codelist": null}, {"name": "LBSTNRLO", "label": "Reference Range Lower Limit-Std Units", "type": "Num", "core": "Exp", "role": "Variable Qualifier", "description": "Lower limit of the reference range in standard units", "codelist": null}, {"name": "LBSTRESC", "label": "Character Result/Finding in Std Format", "type": "Char", "core": "Exp", "role": "Result Qualifier", "description": "Contains the result value for all findings in character format", "codelist": null}, {"name": "LBSTRESN", "label": "Numeric Result/Finding in Standard Units", "type": "Num", "core": "Exp", "role": "Result Qualifier", "description": "Numeric result value in standard units", "codelist": null}, {"name": "LBSTRESU", "label": "Standard Units", "type": "Char", "core": "Exp", "role": "Variable Qualifier", "description": "Standardized units for LBSTRESN", "codelist": {"id": "UNIT", "name": "Units", "values": ["%", "10^12/L", "10^9/L", "C", "F", "IN", "LB", "U/L", "beats/min", "cm", "g/L", "g/dL", "kg", "mEq/L", "mL/min", "mg", "mg/dL", "mmHg", "mmol/L", "ng/mL", "pg/mL", "umol/L"]}}, {"name": "LBTEST", "label": "Lab Test or Examination Name", "type": "Char", "core": "Req", "role": "Synonym Qualifier", "description": "Verbatim name of the test (e.g., Alanine Aminotransferase)", "codelist": {"id": "LBTEST", "name": "Lab Test Name", "values": ["Alanine Aminotransferase", "Albumin", "Alkaline Phosphatase", "Aspartate Aminotransferase", "Bilirubin", "Blood Urea Nitrogen", "Calcium", "Chloride", "Cholesterol", "Creatine Kinase", "Creatinine", "Ery. Mean Corpuscular HGB Concentration", "Ery. Mean Corpuscular Hemoglobin", "Ery. Mean Corpuscular Volume", "Erythrocytes", "Gamma Glutamyl Transferase", "Glucose", "Hematocrit", "Hemoglobin", "Hemoglobin A1C", "Lactate Dehydrogenase", "Leukocytes", "Lymphocytes", "Monocytes", "Neutrophils", "Phosphate", "Platelet", "Potassium", "Protein", "Sodium", "Triglycerides", "Urate"]}}, {"name": "LBTESTCD", "label": "Lab Test or Examination Short Name", "type": "Char", "core": "Req", "role": "Topic", "description": "Short name of the lab test (e.g., ALT, AST, CREAT)", "codelist": {"id": "LBTESTCD", "name": "Lab Test Code", "values": ["ALB", "ALP", "ALT", "AST", "BILI", "BUN", "CA", "CHOL", "CK", "CL", "CREAT", "GGT", "GLUC", "HBA1C", "HCT", "HGB", "K", "LDH", "LYMPH", "MCH", "MCHC", "MCV", "MONO", "NA", "NEUT", "PHOS", "PLAT", "PROT", "RBC", "TRIG", "URATE", "WBC"]}}, {"name": "STUDYID", "label": "Study Identifier", "type": "Char", "core": "Req", "role": "Identifier", "description": "Unique identifier for a study", "codelist": null}, {"name": "USUBJID", "label": "Unique Subject Identifier", "type": "Char", "core": "Req", "role": "Identifier", "description": "Identifier used to uniquely identify a subject across all studies", "codelist": null}, {"name": "VISIT", "label": "Visit Name", "type": "Char", "core": "Exp", "role": "Timing", "description": "Protocol-defined description of clinical encounter", "codelist": null}, {"name": "VISITNUM", "label": "Visit Number", "type": "Num", "core": "Exp", "role": "Timing", "description": "Numeric version of VISIT", "codelist": null}], "related_domains": [{"domain": "AE", "relationship": "clinical_link", "via_variable": null, "description": "Abnormal lab values (LBNRIND = HIGH/LOW) may correlate with or trigger adverse events"}, {"domain": "DM", "relationship": "subject_link", "direction": "incoming", "via_variable": "USUBJID", "description": "Each lab result in LB links to a subject in DM via USUBJID"}, {"domain": "EX", "relationship": "temporal_link", "direction": "incoming", "via_variable": null, "description": "Laboratory tests are often scheduled relative to treatment exposure to monitor drug effects"}]}, "VS": {"domain_code": "VS", "name": "Vital Signs", "description": "One record per vital sign measurement per time point per subject.", "structure": "One record per vital sign per time point per subject", "class": "Findings", "variables": [{"name": "DOMAIN", "label": "Domain Abbreviation", "type": "Char", "core": "Req", "role": "Identifier", "description": "Two-character abbreviation for the domain", "codelist": null}, {"name": "STUDYID", "label": "Study Identifier", "type": "Char", "core": "Req", "role": "Identifier", "description": "Unique identifier for a study", "codelist": null}, {"name": "USUBJID", "label": "Unique Subject Identifier", "type": "Char", "core": "Req", "role": "Identifier", "description": "Identifier used to uniquely identify a subject across all studies", "codelist": null}, {"name": "VISIT", "label": "Visit Name", "type": "Char", "core": "Exp", "role": "Timing", "description": "Protocol-defined name of encounter", "codelist": null}, {"name": "VISITNUM", "label": "Visit Number", "type": "Num", "core": "Exp", "role": "Timing", "description": "Numeric visit", "codelist": null}, {"name": "VSBLFL", "label": "Baseline Flag", "type": "Char", "core": "Exp", "role": "Record Qualifier", "description": "About whether this is a baseline value", "codelist": {"id": "NY", "name": "No Yes Response", "values": ["N", "Y"]}}, {"name": "VSCAT", "label": "Category of Vital Signs", "type": "Char", "core": "Perm", "role": "Grouping Qualifier", "description": "Category of vital signs test", "codelist": null}, {"name": "VSDTC", "label": "Date/Time of Measurements", "type": "Char", "core": "Exp", "role": "Timing", "description": "Date/time in ISO 8601", "codelist": null}, {"name": "VSDY", "label": "Study Day of Vital Signs", "type": "Num", "core": "Perm", "role": "Timing", "description": "Study day of vital signs measurement", "codelist": null}, {"name": "VSLOC", "label": "Location of Vital Signs Measurement", "type": "Char", "core": "Perm", "role": "Record Qualifier", "description": "Location on body used for measurement", "codelist": {"id": "LOC", "name": "Location of Vital Signs Measurement", "values": ["ARM", "CALF", "FOREARM", "THIGH"]}}, {"name": "VSORRES", "label": "Result or Finding in Original Units", "type": "Char", "core": "Exp", "role": "Result Qualifier", "description": "Result of the vital signs measurement as originally collected", "codelist": null}, {"name": "VSORRESU", "label": "Original Units", "type": "Char", "core": "Exp", "role": "Variable Qualifier", "description": "Units for VSORRES", "codelist": {"id": "UNIT", "name": "Units", "values": ["%", "10^12/L", "10^9/L", "C", "F", "IN", "LB", "U/L", "beats/min", "cm", "g/L", "g/dL", "kg", "mEq/L", "mL/min", "mg", "mg/dL", "mmHg", "mmol/L", "ng/mL", "pg/mL", "umol/L"]}}, {"name": "VSPOS", "label": "Vital Signs Position of Subject", "type": "Char", "core": "Exp", "role": "Record Qualifier", "description": "Position of the subject during observations (e.g., STANDING, SITTING, SUPINE)", "codelist": {"id": "POSITION", "name": "Position", "values": ["SITTING", "STANDING", "SUPINE"]}}, {"name": "VSSEQ", "label": "Sequence Number", "type": "Num", "core": "Req", "role": "Identifier", "description": "Sequence number to ensure uniqueness", "codelist": null}, {"name": "VSSTAT", "label": "Completion Status", "type": "Char", "core": "Perm", "role": "Record Qualifier", "description": "Used to indicate when a test was not done (NOT DONE)", "codelist": {"id": "STAT", "name": "Completion Status", "values": ["NOT DONE"]}}, {"name": "VSSTRESC", "label": "Character Result/Finding in Std Format", "type": "Char", "core": "Exp", "role": "Result Qualifier", "description": "Character result in standard format", "codelist": null}, {"name": "VSSTRESN", "label": "Numeric Result/Finding in Standard Units", "type": "Num", "core": "Exp", "role": "Result Qualifier", "description": "Numeric result/finding in standard units", "codelist": null}, {"name": "VSSTRESU", "label": "Standard Units", "type": "Char", "core": "Exp", "role": "Variable Qualifier", "description": "Standardized units", "codelist": {"id": "UNIT", "name": "Units", "values": ["%", "10^12/L", "10^9/L", "C", "F", "IN", "LB", "U/L", "beats/min", "cm", "g/L", "g/dL", "kg", "mEq/L", "mL/min", "mg", "mg/dL", "mmHg", "mmol/L", "ng/mL", "pg/mL", "umol/L"]}}, {"name": "VSTEST", "label": "Vital Signs Test Name", "type": "Char", "core": "Req", "role": "Synonym Qualifier", "description": "Verbatim name of the vital signs test", "codelist": {"id": "VSTEST", "name": "Vital Signs Test Name", "values": ["BMI", "Diastolic Blood Pressure", "Height", "Pulse Rate", "Respiratory Rate", "Systolic Blood Pressure", "Temperature", "Weight"]}}, {"name": "VSTESTCD", "label": "Vital Signs Test Short Name", "type": "Char", "core": "Req", "role": "Topic", "description": "Short name (e.g., SYSBP, DIABP, PULSE, TEMP, WEIGHT, HEIGHT)", "codelist": {"id": "VSTESTCD", "name": "Vital Signs Test Code", "values": ["BMI", "DIABP", "HEIGHT", "PULSE", "RESP", "SYSBP", "TEMP", "WEIGHT"]}}], "related_domains": [{"domain": "DM", "relationship": "subject_link", "direction": "incoming", "via_variable": "USUBJID", "description": "Each vital sign measurement in VS links to a subject in DM via USUBJID"}, {"domain": "EX", "relationship": "temporal_link", "direction": "incoming", "via_variable": null, "description": "Vital signs are often measured relative to dosing events to monitor treatment impact"}]}}, "stats": {"total_nodes": 397, "total_edges": 432, "node_types": {"Standard": 4, "Class": 5, "Codelist": 24, "CodelistValue": 225, "Domain": 6, "Variable": 133}, "edge_types": {"tabulated_to_analysis": 1, "collected_to_tabulated": 1, "analysis_to_reporting": 1, "part_of": 5, "has_value": 225, "belongs_to": 6, "defined_in": 6, "has_variable": 133, "subject_link": 5, "uses_codelist": 44, "clinical_link": 3, "temporal_link": 2}}, "standards_flow": [{"from": "CDASH", "to": "SDTM", "relationship": "collected_to_tabulated", "description": "CDASH (Clinical Data Acquisition Standards Harmonization) defines collection standards that map to SDTM tabulation domains"}, {"from": "SDTM", "to": "ADaM", "relationship": "tabulated_to_analysis", "description": "SDTM tabulation datasets are transformed into ADaM analysis datasets for statistical analysis"}, {"from": "ADaM", "to": "TLF", "relationship": "analysis_to_reporting", "description": "ADaM datasets are used to produce Tables, Listings, and Figures for regulatory submissions"}]}